{
  "resourceType": "Bundle",
  "id": "EXM111-bundle",
  "type": "transaction",
  "entry": [ {
    "resource": {
      "resourceType": "Patient",
      "id": "measure-strat2-excl-EXM111",
      "meta": {
        "profile": [ "http://hl7.org/fhir/us/core/StructureDefinition/us-core-patient" ]
      },
      "extension": [ {
        "url": "http://hl7.org/fhir/us/core/StructureDefinition/us-core-race",
        "extension": [ {
          "url": "ombCategory",
          "valueCoding": {
            "system": "urn:oid:2.16.840.1.113883.6.238",
            "code": "2106-3",
            "display": "White"
          }
        } ]
      }, {
        "url": "http://hl7.org/fhir/us/core/StructureDefinition/us-core-ethnicity",
        "extension": [ {
          "url": "ombCategory",
          "valueCoding": {
            "system": "urn:oid:2.16.840.1.113883.6.238",
            "code": "2186-5",
            "display": "Not Hispanic or Latino"
          }
        } ]
      } ],
      "identifier": [ {
        "use": "usual",
        "type": {
          "coding": [ {
            "system": "http://terminology.hl7.org/CodeSystem/v2-0203",
            "code": "MR",
            "display": "Medical Record Number"
          } ]
        },
        "system": "http://hospital.smarthealthit.org",
        "value": "9999999944"
      } ],
      "name": [ {
        "family": "David",
        "given": [ "Darkhorse" ]
      } ],
      "gender": "male",
      "birthDate": "1943-11-13"
    },
    "request": {
      "method": "PUT",
      "url": "Patient/measure-strat2-excl-EXM111"
    }
  }, {
    "resource": {
      "resourceType": "Encounter",
      "id": "measure-strat2-EXM111-Enc-EDVisit",
      "meta": {
        "profile": [ "http://hl7.org/fhir/us/core/StructureDefinition/us-core-encounter" ]
      },
      "status": "finished",
      "type": [ {
        "coding": [ {
          "system": "http://snomed.info/sct",
          "code": "4525004",
          "display": "Emergency department patient visit (procedure)"
        } ]
      } ],
      "subject": {
        "reference": "Patient/measure-strat2-EXM111"
      },
      "period": {
        "start": "2019-03-15T05:00:00-00:00",
        "end": "2019-03-15T09:45:00-00:00"
      },
      "location": [ {
        "location": {
          "reference": "Location/measure-strat2-EXM111-Location"
        },
        "status": "completed",
        "period": {
          "start": "2019-03-15T05:00:00-00:00",
          "end": "2019-03-15T09:30:00-00:00"
        }
      } ]
    },
    "request": {
      "method": "PUT",
      "url": "Encounter/measure-strat2-EXM111-Enc-EDVisit"
    }
  }, {
    "resource": {
      "resourceType": "Patient",
      "id": "measure-strat1-excl-EXM111",
      "meta": {
        "profile": [ "http://hl7.org/fhir/us/core/StructureDefinition/us-core-patient" ]
      },
      "extension": [ {
        "url": "http://hl7.org/fhir/us/core/StructureDefinition/us-core-race",
        "extension": [ {
          "url": "ombCategory",
          "valueCoding": {
            "system": "urn:oid:2.16.840.1.113883.6.238",
            "code": "2106-3",
            "display": "White"
          }
        } ]
      }, {
        "url": "http://hl7.org/fhir/us/core/StructureDefinition/us-core-ethnicity",
        "extension": [ {
          "url": "ombCategory",
          "valueCoding": {
            "system": "urn:oid:2.16.840.1.113883.6.238",
            "code": "2186-5",
            "display": "Not Hispanic or Latino"
          }
        } ]
      } ],
      "identifier": [ {
        "use": "usual",
        "type": {
          "coding": [ {
            "system": "http://terminology.hl7.org/CodeSystem/v2-0203",
            "code": "MR",
            "display": "Medical Record Number"
          } ]
        },
        "system": "http://hospital.smarthealthit.org",
        "value": "9999999922"
      } ],
      "name": [ {
        "family": "Barbara",
        "given": [ "Broward" ]
      } ],
      "gender": "female",
      "birthDate": "1960-08-28"
    },
    "request": {
      "method": "PUT",
      "url": "Patient/measure-strat1-excl-EXM111"
    }
  }, {
    "resource": {
      "resourceType": "Observation",
      "id": "measure-strat1-excl-EXM111-observation",
      "meta": {
        "profile": [ "http://hl7.org/fhir/observation" ]
      },
      "status": "final",
      "code": {
        "coding": [ {
          "system": "http://loinc.org",
          "code": "28568-4",
          "display": "Physician Emergency Department Note"
        } ]
      },
      "subject": {
        "reference": "Patient/measure-strat1-excl-EXM111"
      },
      "encounter": {
        "reference": "Encounter/measure-strat1-excl-EXM111-Enc-EDVisit"
      },
      "effectivePeriod": {
        "start": "2019-06-15T07:00:00-00:00",
        "end": "2019-06-15T07:15:00-00:00"
      },
      "valueCodeableConcept": {
        "coding": [ {
          "system": "http://snomed.info/sct",
          "code": "183767005",
          "display": "Listed for admission to hospital (finding)"
        } ]
      }
    },
    "request": {
      "method": "PUT",
      "url": "Observation/measure-strat1-excl-EXM111-observation"
    }
  }, {
    "resource": {
      "resourceType": "Encounter",
      "id": "measure-strat1-EXM111-Enc-EDVisit",
      "meta": {
        "profile": [ "http://hl7.org/fhir/us/core/StructureDefinition/us-core-encounter" ]
      },
      "status": "finished",
      "type": [ {
        "coding": [ {
          "system": "http://snomed.info/sct",
          "code": "4525004",
          "display": "Emergency department patient visit (procedure)"
        } ]
      } ],
      "subject": {
        "reference": "Patient/measure-strat1-EXM111"
      },
      "period": {
        "start": "2019-06-15T05:00:00-00:00",
        "end": "2019-06-15T09:45:00-00:00"
      },
      "location": [ {
        "location": {
          "reference": "Location/measure-strat1-EXM111-Location"
        },
        "status": "completed",
        "period": {
          "start": "2019-06-15T05:00:00-00:00",
          "end": "2019-06-15T09:30:00-00:00"
        }
      } ]
    },
    "request": {
      "method": "PUT",
      "url": "Encounter/measure-strat1-EXM111-Enc-EDVisit"
    }
  }, {
    "resource": {
      "resourceType": "Condition",
      "id": "measure-strat2-excl-EXM111-condition",
      "meta": {
        "profile": [ "http://hl7.org/fhir/us/core/StructureDefinition/us-core-condition" ]
      },
      "verificationStatus": {
        "coding": [ {
          "system": "http://terminology.hl7.org/CodeSystem/condition-ver-status",
          "code": "confirmed",
          "display": "Confirmed"
        } ]
      },
      "category": [ {
        "coding": [ {
          "system": "http://terminology.hl7.org/CodeSystem/condition-category",
          "code": "encounter-diagnosis",
          "display": "Encounter Diagnosis"
        } ]
      } ],
      "code": {
        "coding": [ {
          "system": "http://snomed.info/sct",
          "code": "111475002",
          "display": "Neurosis (disorder)"
        } ]
      },
      "subject": {
        "reference": "Patient/measure-strat2-excl-EXM111"
      },
      "encounter": {
        "reference": "Encounter/measure-strat2-excl-EXM111-Enc-Admit"
      }
    },
    "request": {
      "method": "PUT",
      "url": "Condition/measure-strat2-excl-EXM111-condition"
    }
  }, {
    "resource": {
      "resourceType": "Location",
      "id": "measure-strat2-EXM111-Location",
      "status": "active",
      "name": "Sam Chindi's House of Shamans",
      "type": [ {
        "coding": [ {
          "system": "http://snomed.info/sct",
          "code": "4525004",
          "display": "Emergency department patient visit (procedure)"
        } ]
      } ]
    },
    "request": {
      "method": "PUT",
      "url": "Location/measure-strat2-EXM111-Location"
    }
  }, {
    "resource": {
      "resourceType": "Location",
      "id": "measure-strat2-excl-EXM111-Location",
      "status": "active",
      "name": "DeChelley Spider Woman Clinic",
      "type": [ {
        "coding": [ {
          "system": "http://snomed.info/sct",
          "code": "4525004",
          "display": "Emergency department patient visit (procedure)"
        } ]
      } ]
    },
    "request": {
      "method": "PUT",
      "url": "Location/measure-strat2-excl-EXM111-Location"
    }
  }, {
    "resource": {
      "resourceType": "Encounter",
      "id": "measure-strat1-excl-EXM111-Enc-EDVisit",
      "meta": {
        "profile": [ "http://hl7.org/fhir/us/core/StructureDefinition/us-core-encounter" ]
      },
      "status": "finished",
      "type": [ {
        "coding": [ {
          "system": "http://snomed.info/sct",
          "code": "4525004",
          "display": "Emergency department patient visit (procedure)"
        } ]
      } ],
      "subject": {
        "reference": "Patient/measure-strat1-excl-EXM111"
      },
      "period": {
        "start": "2019-06-15T05:00:00-00:00",
        "end": "2019-06-15T09:45:00-00:00"
      },
      "hospitalization": {
        "admitSource": {
          "coding": [ {
            "system": "http://snomed.info/sct",
            "code": "69362002",
            "display": "Hospital -based ambulatory Surgical facility (environment)"
          } ]
        }
      },
      "location": [ {
        "location": {
          "reference": "Location/measure-strat1-excl-EXM111-Location"
        },
        "status": "completed",
        "period": {
          "start": "2019-06-15T05:00:00-00:00",
          "end": "2019-06-15T09:30:00-00:00"
        }
      } ]
    },
    "request": {
      "method": "PUT",
      "url": "Encounter/measure-strat1-excl-EXM111-Enc-EDVisit"
    }
  }, {
    "resource": {
      "resourceType": "Location",
      "id": "measure-strat1-excl-EXM111-Location",
      "status": "active",
      "name": "St. Dougs EmUrgency Care",
      "type": [ {
        "coding": [ {
          "system": "http://snomed.info/sct",
          "code": "4525004",
          "display": "Emergency department patient visit (procedure)"
        } ]
      } ]
    },
    "request": {
      "method": "PUT",
      "url": "Location/measure-strat1-excl-EXM111-Location"
    }
  }, {
    "resource": {
      "resourceType": "Observation",
      "id": "measure-strat2-excl-EXM111-observation",
      "meta": {
        "profile": [ "http://hl7.org/fhir/observation" ]
      },
      "status": "final",
      "code": {
        "coding": [ {
          "system": "http://loinc.org",
          "code": "78307-6",
          "display": "Physician Emergency Department Note"
        } ]
      },
      "subject": {
        "reference": "Patient/measure-strat2-excl-EXM111"
      },
      "encounter": {
        "reference": "Encounter/measure-strat2-excl-EXM111-Enc-EDVisit"
      },
      "effectivePeriod": {
        "start": "2019-03-15T07:00:00-00:00",
        "end": "2019-03-15T07:15:00-00:00"
      },
      "valueCodeableConcept": {
        "coding": [ {
          "system": "http://snomed.info/sct",
          "code": "183783005",
          "display": "Listed for admission to hospital (finding)"
        } ]
      }
    },
    "request": {
      "method": "PUT",
      "url": "Observation/measure-strat2-excl-EXM111-observation"
    }
  }, {
    "resource": {
      "resourceType": "ServiceRequest",
      "id": "measure-strat1-excl-EXM111-ServiceRequest",
      "status": "active",
      "intent": "order",
      "code": {
        "coding": [ {
          "system": "http://snomed.info/sct",
          "code": "10378005",
          "display": "Hospital admisison,  emergency, from emergency room, accidental injury (procedure)"
        } ]
      },
      "subject": {
        "reference": "Patient/measure-strat1-excl-EXM111"
      },
      "encounter": {
        "reference": "Encounter/measure-strat1-excl-EXM111-Enc-EDVisit"
      },
      "authoredOn": "2019-06-15T09:10:00-00:00"
    },
    "request": {
      "method": "PUT",
      "url": "ServiceRequest/measure-strat1-excl-EXM111-ServiceRequest"
    }
  }, {
    "resource": {
      "resourceType": "Condition",
      "id": "measure-strat2-EXM111-condition",
      "meta": {
        "profile": [ "http://hl7.org/fhir/us/core/StructureDefinition/us-core-condition" ]
      },
      "verificationStatus": {
        "coding": [ {
          "system": "http://terminology.hl7.org/CodeSystem/condition-ver-status",
          "code": "confirmed",
          "display": "Confirmed"
        } ]
      },
      "category": [ {
        "coding": [ {
          "system": "http://terminology.hl7.org/CodeSystem/condition-category",
          "code": "encounter-diagnosis",
          "display": "Encounter Diagnosis"
        } ]
      } ],
      "code": {
        "coding": [ {
          "system": "http://snomed.info/sct",
          "code": "111475002",
          "display": "Neurosis (disorder)"
        } ]
      },
      "subject": {
        "reference": "Patient/measure-strat2-EXM111"
      },
      "encounter": {
        "reference": "Encounter/measure-strat2-EXM111-Enc-Admit"
      }
    },
    "request": {
      "method": "PUT",
      "url": "Condition/measure-strat2-EXM111-condition"
    }
  }, {
    "resource": {
      "resourceType": "Encounter",
      "id": "measure-strat1-EXM111-Enc-Admit",
      "meta": {
        "profile": [ "http://hl7.org/fhir/us/core/StructureDefinition/us-core-encounter" ]
      },
      "status": "finished",
      "class": {
        "system": "http://terminology.hl7.org/CodeSystem/v3-ActCode",
        "code": "IMP",
        "display": "inpatient encounter"
      },
      "type": [ {
        "coding": [ {
          "system": "http://snomed.info/sct",
          "code": "183452005",
          "display": "Emergency Hospital Admission (procedure)"
        } ]
      } ],
      "subject": {
        "reference": "Patient/measure-strat1-EXM111"
      },
      "period": {
        "start": "2019-06-15T10:00:00-00:00",
        "end": "2019-06-17T10:00:00-00:00"
      },
      "location": [ {
        "status": "completed",
        "period": {
          "start": "2019-06-15T05:00:00-00:00",
          "end": "2019-06-15T10:00:00-00:00"
        }
      } ]
    },
    "request": {
      "method": "PUT",
      "url": "Encounter/measure-strat1-EXM111-Enc-Admit"
    }
  }, {
    "resource": {
      "resourceType": "Encounter",
      "id": "measure-strat1-excl-EXM111-Enc-Admit",
      "meta": {
        "profile": [ "http://hl7.org/fhir/us/core/StructureDefinition/us-core-encounter" ]
      },
      "status": "finished",
      "class": {
        "system": "http://terminology.hl7.org/CodeSystem/v3-ActCode",
        "code": "IMP",
        "display": "inpatient encounter"
      },
      "type": [ {
        "coding": [ {
          "system": "http://snomed.info/sct",
          "code": "183452005",
          "display": "Emergency Hospital Admission (procedure)"
        } ]
      } ],
      "subject": {
        "reference": "Patient/measure-strat1-excl-EXM111"
      },
      "period": {
        "start": "2019-06-15T10:00:00-00:00",
        "end": "2019-06-17T10:00:00-00:00"
      },
      "location": [ {
        "status": "completed",
        "period": {
          "start": "2019-06-15T05:00:00-00:00",
          "end": "2019-06-15T10:00:00-00:00"
        }
      } ]
    },
    "request": {
      "method": "PUT",
      "url": "Encounter/measure-strat1-excl-EXM111-Enc-Admit"
    }
  }, {
    "resource": {
      "resourceType": "Patient",
      "id": "measure-strat1-EXM111",
      "meta": {
        "profile": [ "http://hl7.org/fhir/us/core/StructureDefinition/us-core-patient" ]
      },
      "extension": [ {
        "url": "http://hl7.org/fhir/us/core/StructureDefinition/us-core-race",
        "extension": [ {
          "url": "ombCategory",
          "valueCoding": {
            "system": "urn:oid:2.16.840.1.113883.6.238",
            "code": "2106-3",
            "display": "White"
          }
        } ]
      }, {
        "url": "http://hl7.org/fhir/us/core/StructureDefinition/us-core-ethnicity",
        "extension": [ {
          "url": "ombCategory",
          "valueCoding": {
            "system": "urn:oid:2.16.840.1.113883.6.238",
            "code": "2186-5",
            "display": "Not Hispanic or Latino"
          }
        } ]
      } ],
      "identifier": [ {
        "use": "usual",
        "type": {
          "coding": [ {
            "system": "http://terminology.hl7.org/CodeSystem/v2-0203",
            "code": "MR",
            "display": "Medical Record Number"
          } ]
        },
        "system": "http://hospital.smarthealthit.org",
        "value": "9999999911"
      } ],
      "name": [ {
        "family": "Abigail",
        "given": [ "Andersen" ]
      } ],
      "gender": "female",
      "birthDate": "1960-08-28"
    },
    "request": {
      "method": "PUT",
      "url": "Patient/measure-strat1-EXM111"
    }
  }, {
    "resource": {
      "resourceType": "Patient",
      "id": "measure-strat2-EXM111",
      "meta": {
        "profile": [ "http://hl7.org/fhir/us/core/StructureDefinition/us-core-patient" ]
      },
      "extension": [ {
        "url": "http://hl7.org/fhir/us/core/StructureDefinition/us-core-race",
        "extension": [ {
          "url": "ombCategory",
          "valueCoding": {
            "system": "urn:oid:2.16.840.1.113883.6.238",
            "code": "2106-3",
            "display": "White"
          }
        } ]
      }, {
        "url": "http://hl7.org/fhir/us/core/StructureDefinition/us-core-ethnicity",
        "extension": [ {
          "url": "ombCategory",
          "valueCoding": {
            "system": "urn:oid:2.16.840.1.113883.6.238",
            "code": "2186-5",
            "display": "Not Hispanic or Latino"
          }
        } ]
      } ],
      "identifier": [ {
        "use": "usual",
        "type": {
          "coding": [ {
            "system": "http://terminology.hl7.org/CodeSystem/v2-0203",
            "code": "MR",
            "display": "Medical Record Number"
          } ]
        },
        "system": "http://hospital.smarthealthit.org",
        "value": "9999999933"
      } ],
      "name": [ {
        "family": "Charles",
        "given": [ "Crowfoot" ]
      } ],
      "gender": "male",
      "birthDate": "1943-11-13"
    },
    "request": {
      "method": "PUT",
      "url": "Patient/measure-strat2-EXM111"
    }
  }, {
    "resource": {
      "resourceType": "Library",
      "id": "library-EXM111-9.1.000",
      "extension": [ {
        "url": "http://hl7.org/fhir/us/cqfmeasures/StructureDefinition/cqfm-softwaresystem",
        "valueReference": {
          "reference": "#cqf-tooling"
        }
      }, {
        "url": "http://hl7.org/fhir/us/cqfmeasures/StructureDefinition/cqfm-softwaresystem",
        "valueReference": {
          "reference": "cqf-tooling"
        }
      } ],
      "url": "http://fhir.org/guides/dbcg/connectathon/Library/EXM111",
      "version": "9.1.000",
      "name": "EXM111",
      "content": [ {
        "contentType": "text/cql",
        "data": ""
      } ]
    },
    "request": {
      "method": "PUT",
      "url": "Library/library-EXM111-9.1.000"
    }
  }, {
    "resource": {
      "resourceType": "Encounter",
      "id": "measure-strat2-excl-EXM111-Enc-Admit",
      "meta": {
        "profile": [ "http://hl7.org/fhir/us/core/StructureDefinition/us-core-encounter" ]
      },
      "status": "finished",
      "class": {
        "system": "http://terminology.hl7.org/CodeSystem/v3-ActCode",
        "code": "IMP",
        "display": "inpatient encounter"
      },
      "type": [ {
        "coding": [ {
          "system": "http://snomed.info/sct",
          "code": "183452005",
          "display": "Emergency Hospital Admission (procedure)"
        } ]
      } ],
      "subject": {
        "reference": "Patient/measure-strat2-excl-EXM111"
      },
      "period": {
        "start": "2019-03-15T10:00:00-00:00",
        "end": "2019-03-17T10:00:00-00:00"
      },
      "diagnosis": [ {
        "condition": {
          "reference": "Condition/measure-strat2-excl-EXM111-condition"
        },
        "use": {
          "coding": [ {
            "system": "http://terminology.hl7.org/CodeSystem/diagnosis-role",
            "code": "AD",
            "display": "Admission diagnosis"
          } ]
        },
        "rank": 1
      } ],
      "location": [ {
        "status": "completed",
        "period": {
          "start": "2019-03-15T05:00:00-00:00",
          "end": "2019-03-15T10:00:00-00:00"
        }
      } ]
    },
    "request": {
      "method": "PUT",
      "url": "Encounter/measure-strat2-excl-EXM111-Enc-Admit"
    }
  }, {
    "resource": {
      "resourceType": "Location",
      "id": "measure-strat1-EXM111-Location",
      "status": "active",
      "name": "Our Lady of Perpetual Guilt",
      "type": [ {
        "coding": [ {
          "system": "http://snomed.info/sct",
          "code": "4525004",
          "display": "Emergency department patient visit (procedure)"
        } ]
      } ]
    },
    "request": {
      "method": "PUT",
      "url": "Location/measure-strat1-EXM111-Location"
    }
  }, {
    "resource": {
      "resourceType": "Encounter",
      "id": "measure-strat2-EXM111-Enc-Admit",
      "meta": {
        "profile": [ "http://hl7.org/fhir/us/core/StructureDefinition/us-core-encounter" ]
      },
      "status": "finished",
      "class": {
        "system": "http://terminology.hl7.org/CodeSystem/v3-ActCode",
        "code": "IMP",
        "display": "inpatient encounter"
      },
      "type": [ {
        "coding": [ {
          "system": "http://snomed.info/sct",
          "code": "183452005",
          "display": "Emergency Hospital Admission (procedure)"
        } ]
      } ],
      "subject": {
        "reference": "Patient/measure-strat2-EXM111"
      },
      "period": {
        "start": "2019-03-15T10:00:00-00:00",
        "end": "2019-03-17T10:00:00-00:00"
      },
      "diagnosis": [ {
        "condition": {
          "reference": "Condition/measure-strat2-EXM111-condition"
        },
        "use": {
          "coding": [ {
            "system": "http://terminology.hl7.org/CodeSystem/diagnosis-role",
            "code": "AD",
            "display": "Admission diagnosis"
          } ]
        },
        "rank": 1
      } ],
      "location": [ {
        "status": "completed",
        "period": {
          "start": "2019-03-15T05:00:00-00:00",
          "end": "2019-03-15T10:00:00-00:00"
        }
      } ]
    },
    "request": {
      "method": "PUT",
      "url": "Encounter/measure-strat2-EXM111-Enc-Admit"
    }
  }, {
    "resource": {
      "resourceType": "ServiceRequest",
      "id": "measure-strat2-excl-EXM111-ServiceRequest",
      "status": "active",
      "intent": "order",
      "code": {
        "coding": [ {
          "system": "http://snomed.info/sct",
          "code": "10378005",
          "display": "Hospital admisison,  emergency, from emergency room, accidental injury (procedure)"
        } ]
      },
      "subject": {
        "reference": "Patient/measure-strat2-excl-EXM111"
      },
      "encounter": {
        "reference": "Encounter/measure-strat2-excl-EXM111-Enc-EDVisit"
      },
      "authoredOn": "2019-03-15T09:10:00-00:00"
    },
    "request": {
      "method": "PUT",
      "url": "ServiceRequest/measure-strat2-excl-EXM111-ServiceRequest"
    }
  }, {
    "resource": {
      "resourceType": "Measure",
      "id": "measure-EXM111-9.1.000",
      "meta": {
        "lastUpdated": "2020-08-17T11:39:51.988-07:00",
        "profile": [ "http://hl7.org/fhir/us/cqfmeasures/StructureDefinition/cv-measure-cqfm" ]
      },
      "text": {
        "status": "generated"
      },
      "extension": [ {
        "url": "http://hl7.org/fhir/us/cqfmeasures/StructureDefinition/cqfm-populationBasis",
        "valueCode": "boolean"
      }, {
        "url": "http://hl7.org/fhir/us/cqfmeasures/StructureDefinition/cqfm-softwaresystem",
        "valueReference": {
          "reference": "#cqf-tooling"
        }
      }, {
        "url": "http://hl7.org/fhir/us/cqfmeasures/StructureDefinition/cqfm-softwaresystem",
        "valueReference": {
          "reference": "cqf-tooling"
        }
      } ],
      "url": "http://hl7.org/fhir/us/cqfmeasures/Measure/measure-EXM111",
      "identifier": [ {
        "use": "official",
        "system": "http://hl7.org/fhir/cqi/ecqm/Measure/Identifier/cms",
        "value": "111"
      } ],
      "version": "9.1.000",
      "name": "EXM111",
      "title": "Median Admit Decision Time to ED Departure Time for Admitted Patients",
      "status": "active",
      "experimental": true,
      "publisher": "Centers for Medicare and Medicaid Services (CMS)",
      "contact": [ {
        "telecom": [ {
          "system": "url",
          "value": "https://www.cms.gov/"
        } ]
      } ],
      "description": "Median time (in minutes) from admit decision time to time of departure from the emergency department for emergency department patients admitted to inpatient status",
      "useContext": [ {
        "code": {
          "code": "program"
        },
        "valueCodeableConcept": {
          "text": "eligible-provider"
        }
      } ],
      "jurisdiction": [ {
        "coding": [ {
          "system": "urn:iso:std:iso:3166",
          "code": "US"
        } ]
      } ],
      "purpose": "Median time (in minutes) from admit decision time to time of departure from the emergency department for emergency department patients admitted to inpatient status",
      "copyright": "Limited proprietary coding is contained in the Measure specifications for user convenience. Users of proprietary code sets should obtain all necessary licenses from the owners of the code sets. Mathematica disclaims all liability for use or accuracy of any third party codes contained in the specifications. CPT(R) contained in the measure specifications is copyright 2004-2019 American Medical Association. LOINC(R) copyright 2004-2019 Regenstrief Institute, Inc. This material contains SNOMED Clinical Terms(R) (SNOMED CT[R]) copyright 2004-2019 International Health Terminology Standards Development Organisation. ICD-10 copyright 2019 World Health Organization. All Rights Reserved.",
      "approvalDate": "2016-01-01",
      "lastReviewDate": "2019-08-19",
      "effectivePeriod": {
        "start": "2020-01-01",
        "end": "2020-12-31"
      },
      "topic": [ {
        "coding": [ {
          "system": "http://loinc.org",
          "code": "57024-2",
          "display": "Health Quality Measure Document"
        } ]
      } ],
      "relatedArtifact": [ {
        "type": "citation",
        "citation": "Derlet, R. W., & Richards J. R. (2002). Emergency department overcrowding in Florida, New York, and Texas. Southern Medical Journal, 95, 846-849."
      }, {
        "type": "citation",
        "citation": "Derlet, R. W., & Richards J. R. (2000). Overcrowding in the nation’s emergency departments: Complex causes and disturbing effects. Annals of Emergency Medicine, 35, 63-68."
      }, {
        "type": "citation",
        "citation": "Diercks, D. B., Roe, M. T., Chen, A. Y., et al. (2007). Prolonged emergency department stays of non-ST-segment-elevation myocardial infarction patients are associated with worse adherence to the American College of Cardiology/American Heart Association guidelines for management and increased adverse events. Annals of Emergency Medicine, 50, 489-496."
      }, {
        "type": "citation",
        "citation": "Fatovich, D. M., & Hirsch, R. L. (2003). Entry overload, emergency department overcrowding, and ambulance bypass. Emergency Medicine Journal, 20, 406-409."
      }, {
        "type": "citation",
        "citation": "Hwang, U., Richardson, L. D., Sonuyi, T. O., et al. (2006). The effect of emergency department crowding on the management of pain in older adults with hip fracture. Journal of the American Geriatrics Society, 54, 270-275."
      }, {
        "type": "citation",
        "citation": "Institute of Medicine. (2006). IOM report: The future of emergency care in the United States health system. Academic Emergency Medicine, 13(10), 1081-1085."
      }, {
        "type": "citation",
        "citation": "Institute of Medicine of the National Academies. (2006). Future of emergency care: Hospital-based emergency care at the breaking point. Washington, DC: National Academies Press."
      }, {
        "type": "citation",
        "citation": "Krochmal, P., & Riley, T. A. (1994). Increased health care costs associated with ED overcrowding. American Journal of Emergency Medicine, 12, 265-266."
      }, {
        "type": "citation",
        "citation": "Kyriacou, D. N., Ricketts, V., Dyne, P. L., et al. (1999). A 5-year time study analysis of emergency department patient care efficiency. Annals of Emergency Medicine, 34, 326-335."
      }, {
        "type": "citation",
        "citation": "Nawar, E. D., Niska, R. W., & Xu, J. (2007). National Hospital Ambulatory Medical Care Survey: 2005 emergency department summary. Advance Data, 386, 1-32."
      }, {
        "type": "citation",
        "citation": "Richardson, D. B. Increase in patient mortality at 10 days associated with emergency department overcrowding. (2006). Medical Journal of Australia, 184, 213-216."
      }, {
        "type": "citation",
        "citation": "Sprivulis, P. C., Da Silva, J. A., Jacobs, I. G., et al. (2006). The association between hospital overcrowding and mortality among patients admitted via Western Australian emergency departments. Medical Journal of Australia, 184, 208-212."
      }, {
        "type": "citation",
        "citation": "Trzeciak, S., & Rivers, E. P. (2003). Emergency department overcrowding in the United States: An emerging threat to patient safety and public health. Emergency Medicine Journal, 20, 402-405."
      }, {
        "type": "citation",
        "citation": "U.S. General Accounting  Office. (2003). Hospital emergency departments: Crowded conditions vary among hospitals and communities. GAO-03-460. Washington, DC: Author."
      }, {
        "type": "citation",
        "citation": "Wilper, A. P., Woolhandler, S., Lasser, K. E., et al. (2008). Waits to see an emergency department physician: U.S. trends and predictors, 1997–2004. Health Affairs (Millwood), 27, w84-w95."
      }, {
        "type": "depends-on",
        "resource": "Library/library-FHIRHelpers-4.0.1"
      }, {
        "type": "depends-on",
        "resource": "Library/library-MATGlobalCommonFunctions-5.0.000"
      }, {
        "type": "depends-on",
        "resource": "Library/library-SupplementalDataElements-2.0.0"
      } ],
      "library": [ "Library/library-EXM111-9.1.000" ],
      "disclaimer": "These performance measures are not clinical guidelines, do not establish a standard of medical care, and have not been tested for all potential applications. THE MEASURES AND SPECIFICATION ARE PROVIDED “AS IS” WITHOUT WARRANTY OF ANY KIND.Due to technical limitations, registered trademarks are indicated by (R) or [R] and unregistered trademarks are indicated by (TM) or [TM].",
      "scoring": {
        "coding": [ {
          "system": "http://hl7.org/fhir/measure-scoring",
          "code": "continuous-variable"
        } ]
      },
      "type": [ {
        "coding": [ {
          "system": "http://hl7.org/fhir/measure-type",
          "code": "process"
        } ]
      } ],
      "riskAdjustment": "None",
      "rateAggregation": "Calculate the duration in minutes between the Decision to Admit time and the departure time for each ED encounter in the measure population; report the median time for all calculations performed. The specification provides elements from the clinical electronic record required to calculate for each ED encounter, i.e., the duration the patient was in the Emergency Department after the decision to admit, also stated as: the Datetime difference between the Emergency Department facility location departure date/time and the Decision to Admit date/time. The calculation requires the median across all ED encounter durations.",
      "rationale": "Reducing the time patients remain in the emergency department (ED) can improve access to treatment and increase quality of care. Reducing this time potentially improves access to care specific to the patient condition and increases the capability to provide additional treatment. In recent times, EDs have experienced significant overcrowding. Although once only a problem in large, urban, teaching hospitals, the phenomenon has spread to other suburban and rural healthcare organizations. According to a 2002 national U.S. survey, more than 90 percent of large hospitals report EDs operating 'at' or 'over' capacity. Approximately one third of hospitals in the U.S. report increases in ambulance diversion in a given year, whereas up to half report crowded conditions in the ED. In a recent national survey, 40 percent of hospital leaders viewed ED crowding as a symptom of workforce shortages. ED crowding may result in delays in the administration of medication such as antibiotics for pneumonia and has been associated with perceptions of compromised emergency care. For patients with non-ST-segment-elevation myocardial infarction, long ED stays were associated with decreased use of guideline-recommended therapies and a higher risk of recurrent myocardial infarction. Overcrowding and heavy emergency resource demand have led to a number of problems, including ambulance refusals, prolonged patient waiting times, increased suffering for those who wait, rushed and unpleasant treatment environments, and potentially poor patient outcomes. When EDs are overwhelmed, their ability to respond to community emergencies and disasters may be compromised.",
      "clinicalRecommendationStatement": "The most common cause of ED crowding is the boarding of admitted patients in the ED. Numerous studies have demonstrated the potential for errors, life threatening delays in treatment, and diminished overall quality is enormous.",
      "improvementNotation": {
        "coding": [ {
          "system": "http://terminology.hl7.org/CodeSystem/measure-improvement-notation",
          "code": "decrease",
          "display": "Improvement noted as a decrease in the median value"
        } ]
      },
      "definition": [ "CMS Certification Number (CCN) is the hospitals identification number that is used for CMS certification" ],
      "guidance": "This measure specification delineates how to calculate the duration from the Decision to Admit to the departure from an Emergency Department (ED) visit. \r\nDecision to Admit: Documentation of the decision to admit the patient from the ED that is closest to the inpatient admission and since admission processes vary at different hospitals this can use either of the following: \r\n 1. An Order- A) admission order (this may be an operational order rather than the hospital admission to inpatient status order), B) disposition order (must explicitly state to admit), C) documented bed request, or D) documented acceptance from admitting physician. This is not the 'bed assignment time' or 'report called time'. Or \r\n2. An Assessment- an ED evaluation that results in a decision to 'Admit Inpatient' \r\nThe decision to admit inpatient must be performed during the ED visit that is within 1 hour of the inpatient admission and prior to the patient departing the ED. \r\nThe specification provides elements from the clinical electronic record required to calculate the median time, i.e., the duration from the decision to admit to the time the patient physically departed the ED. \r\nThis eCQM is an episode-based measure. \r\n This version of the eCQM uses QDM version 5.5.  Please refer to the eCQI resource center (https://ecqi.healthit.gov/qdm) for more information on the QDM.",
      "group": [ {
        "id": "group-1",
        "population": [ {
          "code": {
            "coding": [ {
              "system": "http://terminology.hl7.org/CodeSystem/measure-population",
              "code": "initial-population",
              "display": "Initial Population"
            } ]
          },
          "description": "Inpatient hospitalizations ending during the measurement period with length of stay less than or equal to 120 days, where the patient received services during the preceding emergency department (ED) visit at the facility when a decision to admit inpatient was made prior to departing the ED",
          "criteria": {
            "language": "text/cql",
            "expression": "Initial Population"
          }
        }, {
          "code": {
            "coding": [ {
              "system": "http://terminology.hl7.org/CodeSystem/measure-population",
              "code": "measure-population",
              "display": "Measure Population"
            } ]
          },
          "description": "Initial Population",
          "criteria": {
            "language": "text/cql",
            "expression": "Measure Population"
          }
        }, {
          "code": {
            "coding": [ {
              "system": "http://terminology.hl7.org/CodeSystem/measure-population",
              "code": "measure-population-exclusion",
              "display": "Measure Population Exclusion"
            } ]
          },
          "description": "Exclude the most recent ED encounter (LastEDVisit) that occurred within an hour of the inpatient admission with ED admission source in 'Hospital Setting' (any different facility- by location or CCN )",
          "criteria": {
            "language": "text/cql",
            "expression": "Measure Population Exclusions"
          }
        }, {
          "code": {
            "coding": [ {
              "system": "http://terminology.hl7.org/CodeSystem/measure-population",
              "code": "measure-observation",
              "display": "Measure Observation"
            } ]
          },
          "description": "The duration from the Decision to Admit (order or assessment) to the departure from the Emergency Department",
          "criteria": {
            "language": "text/cql",
            "expression": "MeasureObservation"
          }
        } ],
        "stratifier": [ {
          "code": {
            "text": "stratification-1"
          },
          "description": "Patient encounters without a principal diagnosis (rank=1) of 'Psychiatric/Mental Health Diagnosis'",
          "criteria": {
            "name": "stratification-1",
            "language": "text/cql",
            "expression": "Stratification 1"
          }
        }, {
          "code": {
            "text": "stratification-2"
          },
          "description": "Patient encounters with a principal diagnosis (rank=1) of 'Psychiatric/Mental Health Diagnosis'",
          "criteria": {
            "name": "stratification-2",
            "language": "text/cql",
            "expression": "Stratification 2"
          }
        } ]
      } ],
      "supplementalData": [ {
        "code": {
          "text": "sde-ethnicity"
        },
        "usage": [ {
          "coding": [ {
            "system": "http://hl7.org/fhir/measure-data-usage",
            "code": "supplemental-data"
          } ]
        } ],
        "criteria": {
          "language": "text/cql",
          "expression": "SDE Ethnicity"
        }
      }, {
        "code": {
          "text": "sde-payer"
        },
        "usage": [ {
          "coding": [ {
            "system": "http://hl7.org/fhir/measure-data-usage",
            "code": "supplemental-data"
          } ]
        } ],
        "criteria": {
          "language": "text/cql",
          "expression": "SDE Payer"
        }
      }, {
        "code": {
          "text": "sde-race"
        },
        "usage": [ {
          "coding": [ {
            "system": "http://hl7.org/fhir/measure-data-usage",
            "code": "supplemental-data"
          } ]
        } ],
        "criteria": {
          "language": "text/cql",
          "expression": "SDE Race"
        }
      }, {
        "code": {
          "text": "sde-sex"
        },
        "usage": [ {
          "coding": [ {
            "system": "http://hl7.org/fhir/measure-data-usage",
            "code": "supplemental-data"
          } ]
        } ],
        "criteria": {
          "language": "text/cql",
          "expression": "SDE Sex"
        }
      } ]
    },
    "request": {
      "method": "PUT",
      "url": "Measure/measure-EXM111-9.1.000"
    }
  }, {
    "resource": {
      "resourceType": "MeasureReport",
      "id": "measurereport-measure-strat1-EXM111",
      "contained": [ {
        "resourceType": "Observation",
        "id": "2f67760b-2038-4f11-9482-02b8309e0de2",
        "extension": [ {
          "url": "http://hl7.org/fhir/StructureDefinition/cqf-measureInfo",
          "extension": [ {
            "url": "measure",
            "valueCanonical": "http://hl7.org/fhir/us/cqfmeasures/Measure/measure-EXM111-9.1.000"
          }, {
            "url": "populationId",
            "valueString": "MeasureObservation"
          } ]
        } ],
        "status": "final",
        "code": {
          "text": "MeasureObservation"
        },
        "valueQuantity": {
          "value": 20,
          "code": "min"
        }
      }, {
        "resourceType": "Observation",
        "id": "031b6c34-58c8-424f-8f58-fb7bab233220",
        "extension": [ {
          "url": "http://hl7.org/fhir/StructureDefinition/cqf-measureInfo",
          "extension": [ {
            "url": "measure",
            "valueCanonical": "http://hl7.org/fhir/us/cqfmeasures/Measure/measure-EXM111-9.1.000"
          }, {
            "url": "populationId",
            "valueString": "sde-race"
          } ]
        } ],
        "status": "final",
        "code": {
          "text": "sde-race"
        },
        "valueCodeableConcept": {
          "coding": [ {
            "system": "urn:oid:2.16.840.1.113883.6.238",
            "code": "2106-3",
            "display": "White"
          } ]
        }
      }, {
        "resourceType": "Observation",
        "id": "b3c0917b-aec8-4d97-87ba-fc31894c81c9",
        "extension": [ {
          "url": "http://hl7.org/fhir/StructureDefinition/cqf-measureInfo",
          "extension": [ {
            "url": "measure",
            "valueCanonical": "http://hl7.org/fhir/us/cqfmeasures/Measure/measure-EXM111-9.1.000"
          }, {
            "url": "populationId",
            "valueString": "sde-ethnicity"
          } ]
        } ],
        "status": "final",
        "code": {
          "text": "sde-ethnicity"
        },
        "valueCodeableConcept": {
          "coding": [ {
            "system": "urn:oid:2.16.840.1.113883.6.238",
            "code": "2186-5",
            "display": "Not Hispanic or Latino"
          } ]
        }
      }, {
        "resourceType": "Observation",
        "id": "ac8c3249-a00c-4cfa-9bbc-0de7d8a488a6",
        "extension": [ {
          "url": "http://hl7.org/fhir/StructureDefinition/cqf-measureInfo",
          "extension": [ {
            "url": "measure",
            "valueCanonical": "http://hl7.org/fhir/us/cqfmeasures/Measure/measure-EXM111-9.1.000"
          }, {
            "url": "populationId",
            "valueString": "sde-sex"
          } ]
        } ],
        "status": "final",
        "code": {
          "text": "sde-sex"
        },
        "valueCodeableConcept": {
          "coding": [ {
            "code": "F"
          } ]
        }
      } ],
      "status": "complete",
      "type": "individual",
      "measure": "Measure/measure-EXM111-9.1.000",
      "subject": {
        "reference": "Patient/measure-strat1-EXM111"
      },
      "period": {
        "start": "2019-01-01T00:00:00-07:00",
        "end": "2019-12-31T00:00:00-07:00"
      },
      "group": [ {
        "id": "group-1",
        "population": [ {
          "code": {
            "coding": [ {
              "system": "http://terminology.hl7.org/CodeSystem/measure-population",
              "code": "initial-population",
              "display": "Initial Population"
            } ]
          },
          "count": 1
        }, {
          "code": {
            "coding": [ {
              "system": "http://terminology.hl7.org/CodeSystem/measure-population",
              "code": "measure-population",
              "display": "Measure Population"
            } ]
          },
          "count": 1
        }, {
          "code": {
            "coding": [ {
              "system": "http://terminology.hl7.org/CodeSystem/measure-population",
              "code": "measure-population-exclusion",
              "display": "Measure Population Exclusion"
            } ]
          },
          "count": 0
        } ]
      } ],
      "evaluatedResource": [ {
        "reference": "#2f67760b-2038-4f11-9482-02b8309e0de2"
      }, {
        "reference": "#031b6c34-58c8-424f-8f58-fb7bab233220"
      }, {
        "reference": "#b3c0917b-aec8-4d97-87ba-fc31894c81c9"
      }, {
        "reference": "#ac8c3249-a00c-4cfa-9bbc-0de7d8a488a6"
      }, {
        "reference": "Encounter/measure-strat1-EXM111-Enc-Admit"
      }, {
        "reference": "Location/measure-strat1-EXM111-Location"
      }, {
        "reference": "Location/measure-strat2-excl-EXM111-Location"
      }, {
        "reference": "Encounter/measure-strat1-EXM111-Enc-EDVisit"
      }, {
        "reference": "Observation/measure-strat1-EXM111-observation"
      }, {
        "reference": "Location/measure-strat2-EXM111-Location"
      }, {
        "reference": "Location/measure-strat1-excl-EXM111-Location"
      }, {
        "reference": "ServiceRequest/measure-strat1-EXM111-ServiceRequest"
      } ]
    },
    "request": {
      "method": "PUT",
      "url": "MeasureReport/measurereport-measure-strat1-EXM111"
    }
  }, {
    "resource": {
      "resourceType": "ServiceRequest",
      "id": "measure-strat1-EXM111-ServiceRequest",
      "status": "active",
      "intent": "order",
      "code": {
        "coding": [ {
          "system": "http://snomed.info/sct",
          "code": "10378005",
          "display": "Hospital admisison,  emergency, from emergency room, accidental injury (procedure)"
        } ]
      },
      "subject": {
        "reference": "Patient/measure-strat1-EXM111"
      },
      "encounter": {
        "reference": "Encounter/measure-strat1-EXM111-Enc-EDVisit"
      },
      "authoredOn": "2019-06-15T09:10:00-00:00"
    },
    "request": {
      "method": "PUT",
      "url": "ServiceRequest/measure-strat1-EXM111-ServiceRequest"
    }
  }, {
    "resource": {
      "resourceType": "Encounter",
      "id": "measure-strat2-excl-EXM111-Enc-EDVisit",
      "meta": {
        "profile": [ "http://hl7.org/fhir/us/core/StructureDefinition/us-core-encounter" ]
      },
      "status": "finished",
      "type": [ {
        "coding": [ {
          "system": "http://snomed.info/sct",
          "code": "4525004",
          "display": "Emergency department patient visit (procedure)"
        } ]
      } ],
      "subject": {
        "reference": "Patient/measure-strat2-excl-EXM111"
      },
      "period": {
        "start": "2019-03-15T05:00:00-00:00",
        "end": "2019-03-15T09:45:00-00:00"
      },
      "hospitalization": {
        "admitSource": {
          "coding": [ {
            "system": "http://snomed.info/sct",
            "code": "73770003",
            "display": "Hospital-based outpatient emergency care center (environment)"
          } ]
        }
      },
      "location": [ {
        "location": {
          "reference": "Location/measure-strat2-excl-EXM111-Location"
        },
        "status": "completed",
        "period": {
          "start": "2019-03-15T05:00:00-00:00",
          "end": "2019-03-15T09:30:00-00:00"
        }
      } ]
    },
    "request": {
      "method": "PUT",
      "url": "Encounter/measure-strat2-excl-EXM111-Enc-EDVisit"
    }
  }, {
    "resource": {
      "resourceType": "ServiceRequest",
      "id": "measure-strat2-EXM111-ServiceRequest",
      "status": "active",
      "intent": "order",
      "code": {
        "coding": [ {
          "system": "http://snomed.info/sct",
          "code": "10378005",
          "display": "Hospital admisison,  emergency, from emergency room, accidental injury (procedure)"
        } ]
      },
      "subject": {
        "reference": "Patient/measure-strat2-EXM111"
      },
      "encounter": {
        "reference": "Encounter/measure-strat2-EXM111-Enc-EDVisit"
      },
      "authoredOn": "2019-03-15T09:10:00-00:00"
    },
    "request": {
      "method": "PUT",
      "url": "ServiceRequest/measure-strat2-EXM111-ServiceRequest"
    }
  }, {
    "resource": {
      "resourceType": "Observation",
      "id": "measure-strat2-EXM111-observation",
      "meta": {
        "profile": [ "http://hl7.org/fhir/observation" ]
      },
      "status": "final",
      "code": {
        "coding": [ {
          "system": "http://loinc.org",
          "code": "78307-6",
          "display": "Physician Emergency Department Note"
        } ]
      },
      "subject": {
        "reference": "Patient/measure-strat2-EXM111"
      },
      "encounter": {
        "reference": "Encounter/measure-strat2-EXM111-Enc-EDVisit"
      },
      "effectivePeriod": {
        "start": "2019-03-15T07:00:00-00:00",
        "end": "2019-03-15T07:15:00-00:00"
      },
      "valueCodeableConcept": {
        "coding": [ {
          "system": "http://snomed.info/sct",
          "code": "183783005",
          "display": "Listed for admission to hospital (finding)"
        } ]
      }
    },
    "request": {
      "method": "PUT",
      "url": "Observation/measure-strat2-EXM111-observation"
    }
  }, {
    "resource": {
      "resourceType": "Observation",
      "id": "measure-strat1-EXM111-observation",
      "meta": {
        "profile": [ "http://hl7.org/fhir/observation" ]
      },
      "status": "final",
      "code": {
        "coding": [ {
          "system": "http://loinc.org",
          "code": "28568-4",
          "display": "Physician Emergency Department Note"
        } ]
      },
      "subject": {
        "reference": "Patient/measure-strat1-EXM111"
      },
      "encounter": {
        "reference": "Encounter/measure-strat1-EXM111-Enc-EDVisit"
      },
      "effectivePeriod": {
        "start": "2019-06-15T07:00:00-00:00",
        "end": "2019-06-15T07:15:00-00:00"
      },
      "valueCodeableConcept": {
        "coding": [ {
          "system": "http://snomed.info/sct",
          "code": "183767005",
          "display": "Listed for admission to hospital (finding)"
        } ]
      }
    },
    "request": {
      "method": "PUT",
      "url": "Observation/measure-strat1-EXM111-observation"
    }
  } ]
}